{
  "resourceType": "Bundle",
  "type": "batch",
  "entry": [
    {
      "fullUrl": "urn:uuid:5f309332-9f4a-405f-bc7c-9d9bb2fccd52",
      "resource": {
        "resourceType": "Practitioner",
        "id": "5f309332-9f4a-405f-bc7c-9d9bb2fccd52",
        "meta": {
          "profile": [
            "http://hl7.org/fhir/us/core/StructureDefinition/us-core-practitioner"
          ],
          "source": ["ecr"]
        },
        "identifier": [
          {
            "system": "urn:ietf:rfc:3986",
            "value": "urn:uuid:5673629d-62f4-4c43-bbed-1a413e9b3b89"
          }
        ],
        "name": [
          {
            "family": "Aphra",
            "given": ["Chelli", "Lona"],
            "prefix": ["Dr."]
          },
          {
            "use": "usual",
            "text": "Bandomeer Hospital"
          }
        ],
        "address": [
          {
            "line": ["1 MAIN STREET"],
            "city": "ANCHORHEAD",
            "state": "AZ",
            "postalCode": "00012"
          }
        ],
        "telecom": [
          {
            "system": "email",
            "value": "lona@example.com"
          },
          {
            "system": "phone",
            "value": "+1(555)555-1234",
            "use": "work"
          }
        ]
      },
      "request": {
        "method": "PUT",
        "url": "Practitioner/5f309332-9f4a-405f-bc7c-9d9bb2fccd52"
      }
    },
    {
      "fullUrl": "urn:uuid:1234",
      "resource": {
        "resourceType": "Practitioner",
        "id": "1234",
        "meta": {
          "profile": [
            "http://hl7.org/fhir/us/core/StructureDefinition/us-core-practitioner"
          ],
          "source": ["ecr"]
        },
        "identifier": [
          {
            "system": "urn:ietf:rfc:3986",
            "value": "urn:uuid:5673629d-62f4-4c43-bbed-1a413e9b3b89"
          }
        ],
        "name": [
          {
            "family": "Nix",
            "given": ["Toob"],
            "prefix": ["DR"],
            "suffix": ["SR"]
          },
          {
            "use": "usual",
            "text": "Bandomeer Hospital"
          }
        ],
        "address": [
          {
            "line": ["1 MAIN STREET"],
            "city": "ANCHORHEAD",
            "state": "AZ",
            "postalCode": "00012"
          }
        ],
        "telecom": [
          {
            "system": "email",
            "value": "toob-nix@example.com"
          },
          {
            "system": "phone",
            "value": "+1(555)555-1235",
            "use": "work"
          }
        ]
      },
      "request": {
        "method": "PUT",
        "url": "Practitioner/5f309332-9f4a-405f-bc7c-9d9bb2fccd52"
      }
    },
    {
      "fullUrl": "urn:uuid:9583d6c9-3c73-2bd2-b8dd-c4af7d5fefbe",
      "resource": {
        "resourceType": "CareTeam",
        "id": "9583d6c9-3c73-2bd2-b8dd-c4af7d5fefbe",
        "identifier": [
          {
            "system": "urn:ietf:rfc:3986",
            "value": "urn:uuid:bab4bd72-ab7b-11ec-81e0-9e7eef92c510"
          }
        ],
        "status": "active",
        "name": "Patient Care Team",
        "subject": {
          "reference": "Patient/e365e5f1-d103-4da5-8652-c6e30bf0397a"
        },
        "participant": [
          {
            "role": {
              "text": "admitting physician"
            },
            "member": {
              "reference": "Practitioner/1234"
            },
            "period": {
              "start": "18841116",
              "end": "18960521"
            },
            "modifierExtension": [
              {
                "url": "participant.status",
                "valueString": "active"
              }
            ]
          },
          {
            "role": {
              "text": "family"
            },
            "member": {
              "reference": "Practitioner/5f309332-9f4a-405f-bc7c-9d9bb2fccd52"
            },
            "period": {
              "start": "18970324"
            },
            "modifierExtension": [
              {
                "url": "participant.status",
                "valueString": "active"
              }
            ]
          }
        ],
        "meta": {
          "source": ["ecr"]
        }
      }
    }
  ]
}
